Folder: BWOfigures/XRD

Note: README.md
# Tunable W5+ absorbance in laser floating zone grown bismuth tungstate
Located here are the scripts I used for generating figures in my paper. I hope these serve to help anyone in their data analysis presentation.

File: PDC_LDFZ_20200720_1_217_1_(PTF1_20200715)_Bi2WO6_vapor_4hr.csv
5.0,27496.0
5.18872,25443.0
5.37743,23380.0
5.56615,21572.0
5.75487,20347.0
5.94359,18969.0
6.1323,17627.0
6.32102,16298.0
6.50974,14777.0
6.69845,13474.0
6.887171,12360.0
7.07589,10675.0
7.26461,9658.0
7.45332,8971.0
7.64204,8130.0
7.83076,7559.0
8.01947,7408.0
8.20819,7414.0
8.39691,7630.0
8.58562,7797.0
8.774342,7703.0
8.96306,7662.0
9.15178,8001.0
9.34049,8041.0
9.52921,8078.0
9.71793,7988.0
9.90664,8250.0
10.0954,8403.0
10.2841,8124.0
10.4728,8209.0
10.6615,8068.0
10.8502,8068.0
11.0389,7805.0
11.2277,7757.0
11.4164,7600.0
11.6051,7598.0
11.7938,7462.0
11.9825,7123.0
12.1712,7200.0
12.36,7075.0
12.5487,6649.0
12.7374,6805.0
12.9261,6570.0
13.1148,6483.0
13.3036,6250.0
13.4923,6180.0
13.681,6165.0
13.8697,5855.0
14.0584,5984.0
14.2471,5576.0
14.4359,5810.0
14.6246,5658.0
14.8133,5461.0
15.002,5527.0
15.1907,5488.0
15.3794,5418.0
15.5682,5276.0
15.7569,5308.0
15.9456,5393.0
16.1343,5448.0
16.323,5396.0
16.5117,5408.0
16.7005,5392.0
16.8892,5480.0
17.0779,5496.0
17.2666,5460.0
17.4553,5483.0
17.644,5411.0
17.8328,5485.0
18.0215,5635.0
18.2102,5660.0
18.3989,5706.0
18.5876,5532.0
18.7763,5599.0
18.9651,5704.0
19.1538,5720.0
19.3425,5660.0
19.5312,5705.0
19.7199,5875.0
19.9087,5768.0
20.0974,5739.0
20.2861,5805.0
20.4748,5717.0
20.6635,5801.0
20.8522,5936.0
21.041,6018.0
21.2297,5934.0
21.4184,5816.0
21.6071,5962.0
21.7958,5890.0
21.9845,5892.0
22.1733,6076.0
22.362,6195.0
22.5507,6228.0
22.7394,6406.0
22.9281,6160.0
23.1168,6348.0
23.3056,6143.0
23.4943,6072.0
23.683,6335.0
23.87171,6316.0
24.0604,6243.0
24.2491,6185.0
24.4379,6294.0
24.6266,6363.0
24.8153,6387.0
25.004,6252.0
25.1927,6445.0
25.3814,6481.0
25.5702,6696.0
25.7589,6665.0
25.9476,6801.0
26.1363,6992.0
26.325,7472.0
26.5137,7763.0
26.7025,8477.0
26.8912,10101.0
27.0799,13321.0
27.2686,16780.0
27.4573,18717.0
27.6461,17855.0
27.8348,15492.0
28.0235,12929.0
28.2122,10642.0
28.4009,10706.0
28.5896,9046.0
28.7784,8119.0
28.9671,7672.0
29.1558,7523.0
29.3445,7184.0
29.5332,6855.0
29.7219,6715.0
29.9107,6706.0
30.0994,6510.0
30.2881,6398.0
30.4768,6216.0
30.6655,6381.0
30.8542,6071.0
31.043,6243.0
31.2317,6226.0
31.4204,6359.0
31.6091,6530.0
31.7978,6730.0
31.9865,7099.0
32.1753,6982.0
32.364,6500.0
32.5527,6152.0
32.7414,5749.0
32.9301,6479.0
33.1188,5849.0
33.3076,4736.0
33.4963,4639.0
33.685,4594.0
33.8737,4316.0
34.0624,4289.0
34.2512,4112.0
34.4399,4110.0
34.6286,4051.0
34.8173,4011.0
35.006,3936.0
35.1947,3787.0
35.3835,3765.0
35.5722,3746.0
35.7609,3689.0
35.9496,3645.0
36.1383,3557.0
36.327,3450.0
36.5158,3520.0
36.7045,3457.0
36.8932,3458.0
37.0819,3498.0
37.2706,3576.0
37.4593,3630.0
37.6481,3680.0
37.8368,4433.0
38.0255,5020.0
38.2142,5440.0
38.4029,4927.0
38.5916,4412.0
38.7804,3911.0
38.9691,3817.0
39.1578,3746.0
39.3465,4048.0
39.5352,4757.0
39.7239,5373.0
39.9127,5297.0
40.1014,4627.0
40.2901,3979.0
40.4788,3403.0
40.6675,3276.0
40.8562,3204.0
41.045,3115.0
41.2337,2979.0
41.4224,3060.0
41.6111,3047.0
41.7998,2970.0
41.9886,3000.0
42.1773,3051.0
42.366,2953.0
42.5547,2963.0
42.74342,3088.0
42.9321,3059.0
43.1209,2985.0
43.3096,3131.0
43.4983,3085.0
43.687,3019.0
43.8757,3125.0
44.0644,3162.0
44.2532,3255.0
44.4419,3311.0
44.6306,3565.0
44.8193,3663.0
45.008,3838.0
45.1967,3838.0
45.3855,3963.0
45.5742,4570.0
45.7629,5028.0
45.9516,5278.0
46.1403,5303.0
46.329,4939.0
46.5178,4334.0
46.7065,4008.0
46.8952,3773.0
47.0839,4167.0
47.2726,4170.0
47.4613,3486.0
47.6501,3336.0
47.8388,3235.0
48.0275,3180.0
48.2162,3417.0
48.4049,3388.0
48.5937,3645.0
48.7824,4020.0
48.9711,4023.0
49.1598,3909.0
49.3485,3518.0
49.5372,3315.0
49.726,3113.0
49.9147,2987.0
50.1034,3035.0
50.2921,2940.0
50.4808,2958.0
50.6695,2959.0
50.8583,2905.0
51.047,2979.0
51.2357,2904.0
51.4244,2976.0
51.6131,2933.0
51.8018,2949.0
51.9906,3001.0
52.1793,3019.0
52.368,2958.0
52.5567,3025.0
52.7454,2958.0
52.9341,2998.0
53.1229,3083.0
53.3116,3112.0
53.5003,3232.0
53.689,3380.0
53.8777,3666.0
54.0664,3883.0
54.2552,4241.0
54.4439,4398.0
54.6326,4357.0
54.8213,3948.0
55.01,3831.0
55.1987,3480.0
55.3875,3439.0
55.5762,3300.0
55.7649,3689.0
55.9536,4509.0
56.1423,5159.0
56.3311,4009.0
56.5198,3464.0
56.7085,3400.0
56.8972,3301.0
57.0859,3257.0
57.2746,3264.0
57.4634,3082.0
57.6521,2997.0
57.8408,2957.0
58.0295,2902.0
58.2182,2754.0
58.4069,2925.0
58.5957,2807.0
58.7844,2933.0
58.9731,2768.0
59.1618,2678.0
59.3505,2833.0
59.5392,2715.0
59.728,2844.0
59.9167,2803.0
60.0368,2694.0

File: PDC_LDFZ_20200723_2_217_1_4h-BWO-ttipoffeedrod-solvent.csv
5.0,28126.0
5.18872,25901.0
5.37743,23728.0
5.56615,22005.0
5.75487,21012.0
5.94359,19391.0
6.1323,18180.0
6.32102,16845.0
6.50974,15234.0
6.69845,13880.0
6.887171,12624.0
7.07589,11507.0
7.26461,10168.0
7.45332,9218.0
7.64204,8372.0
7.83076,7596.0
8.01947,7380.0
8.20819,7270.0
8.39691,7366.0
8.58562,7409.0
8.774342,7200.0
8.96306,7239.0
9.15178,7194.0
9.34049,7106.0
9.52921,7183.0
9.71793,7046.0
9.90664,7337.0
10.0954,7080.0
10.2841,7190.0
10.4728,7093.0
10.6615,7134.0
10.8502,7289.0
11.0389,6703.0
11.2277,6693.0
11.4164,6458.0
11.6051,6530.0
11.7938,6394.0
11.9825,6392.0
12.1712,6109.0
12.36,6083.0
12.5487,6241.0
12.7374,6124.0
12.9261,5759.0
13.1148,5776.0
13.3036,5809.0
13.4923,5779.0
13.681,5365.0
13.8697,5506.0
14.0584,5395.0
14.2471,5323.0
14.4359,5287.0
14.6246,5369.0
14.8133,5041.0
15.002,5256.0
15.1907,5243.0
15.3794,5252.0
15.5682,5283.0
15.7569,5173.0
15.9456,5225.0
16.1343,5299.0
16.323,5205.0
16.5117,5284.0
16.7005,5390.0
16.8892,5311.0
17.0779,5457.0
17.2666,5349.0
17.4553,5443.0
17.644,5398.0
17.8328,5576.0
18.0215,5463.0
18.2102,5499.0
18.3989,5413.0
18.5876,5412.0
18.7763,5419.0
18.9651,5541.0
19.1538,5416.0
19.3425,5513.0
19.5312,5495.0
19.7199,5561.0
19.9087,5413.0
20.0974,5421.0
20.2861,5412.0
20.4748,5270.0
20.6635,5269.0
20.8522,5394.0
21.041,5488.0
21.2297,5328.0
21.4184,5436.0
21.6071,5309.0
21.7958,5307.0
21.9845,5276.0
22.1733,5342.0
22.362,5296.0
22.5507,5442.0
22.7394,5390.0
22.9281,5338.0
23.1168,5365.0
23.3056,5413.0
23.4943,5781.0
23.683,5472.0
23.87171,5416.0
24.0604,5271.0
24.2491,5120.0
24.4379,5191.0
24.6266,5069.0
24.8153,5015.0
25.004,5154.0
25.1927,5132.0
25.3814,5082.0
25.5702,5010.0
25.7589,5150.0
25.9476,5473.0
26.1363,4883.0
26.325,4792.0
26.5137,4793.0
26.7025,4683.0
26.8912,4546.0
27.0799,4635.0
27.2686,4811.0
27.4573,4718.0
27.6461,5156.0
27.8348,5792.0
28.0235,5334.0
28.2122,8309.0
28.4009,44639.0
28.5896,7768.0
28.7784,4764.0
28.9671,4448.0
29.1558,4215.0
29.3445,4151.0
29.5332,4053.0
29.7219,4147.0
29.9107,4786.0
30.0994,5595.0
30.2881,4634.0
30.4768,3950.0
30.6655,3720.0
30.8542,3632.0
31.043,3632.0
31.2317,3539.0
31.4204,3408.0
31.6091,3461.0
31.7978,3476.0
31.9865,3463.0
32.1753,3359.0
32.364,3527.0
32.5527,4139.0
32.7414,11436.0
32.9301,13124.0
33.1188,7231.0
33.3076,3994.0
33.4963,3217.0
33.685,3063.0
33.8737,2944.0
34.0624,2895.0
34.2512,2808.0
34.4399,2796.0
34.6286,2818.0
34.8173,2794.0
35.006,2761.0
35.1947,2627.0
35.3835,2594.0
35.5722,2588.0
35.7609,2571.0
35.9496,3594.0
36.1383,2735.0
36.327,2511.0
36.5158,2431.0
36.7045,2340.0
36.8932,2400.0
37.0819,2384.0
37.2706,2426.0
37.4593,2671.0
37.6481,2209.0
37.8368,2231.0
38.0255,2361.0
38.2142,2220.0
38.4029,2091.0
38.5916,2252.0
38.7804,2137.0
38.9691,2070.0
39.1578,2042.0
39.3465,2067.0
39.5352,1970.0
39.7239,2105.0
39.9127,2030.0
40.1014,1928.0
40.2901,2010.0
40.4788,1975.0
40.6675,1986.0
40.8562,1947.0
41.045,1946.0
41.2337,1981.0
41.4224,1901.0
41.6111,2052.0
41.7998,1971.0
41.9886,1912.0
42.1773,1880.0
42.366,2076.0
42.5547,1868.0
42.74342,2001.0
42.9321,1901.0
43.1209,1960.0
43.3096,1886.0
43.4983,1887.0
43.687,1810.0
43.8757,1921.0
44.0644,1849.0
44.2532,1816.0
44.4419,1802.0
44.6306,1861.0
44.8193,1807.0
45.008,1934.0
45.1967,2017.0
45.3855,2281.0
45.5742,2190.0
45.7629,1925.0
45.9516,1891.0
46.1403,1853.0
46.329,1916.0
46.5178,2082.0
46.7065,2296.0
46.8952,3645.0
47.0839,12349.0
47.2726,13969.0
47.4613,4544.0
47.6501,2677.0
47.8388,2155.0
48.0275,2044.0
48.2162,2228.0
48.4049,1837.0
48.5937,1950.0
48.7824,1872.0
48.9711,1788.0
49.1598,1591.0
49.3485,1579.0
49.5372,1715.0
49.726,1699.0
49.9147,1696.0
50.1034,1733.0
50.2921,1707.0
50.4808,1664.0
50.6695,1689.0
50.8583,1621.0
51.047,1678.0
51.2357,1734.0
51.4244,1747.0
51.6131,1870.0
51.8018,1826.0
51.9906,1705.0
52.1793,1789.0
52.368,1687.0
52.5567,1819.0
52.7454,1703.0
52.9341,1570.0
53.1229,1672.0
53.3116,1684.0
53.5003,1859.0
53.689,1706.0
53.8777,1802.0
54.0664,1778.0
54.2552,2073.0
54.4439,1971.0
54.6326,1839.0
54.8213,1891.0
55.01,1851.0
55.1987,2004.0
55.3875,2439.0
55.5762,3957.0
55.7649,12913.0
55.9536,13875.0
56.1423,10273.0
56.3311,3981.0
56.5198,2220.0
56.7085,1897.0
56.8972,1767.0
57.0859,1967.0
57.2746,2112.0
57.4634,1862.0
57.6521,1716.0
57.8408,1681.0
58.0295,1643.0
58.2182,1801.0
58.4069,2409.0
58.5957,7060.0
58.7844,5564.0
58.9731,2223.0
59.1618,1753.0
59.3505,1673.0
59.5392,1883.0
59.728,2194.0
59.9167,1813.0
60.0368,1612.0